#TREATMENT-PLAN-DESCRIPTION
#PlanName
BP12-PB 
#NumberOfFractions
1
##FractionID
1
##NumberOfFields
1
###FieldsID
1
#TotalMetersetWeightOfAllFields
952

#FIELD-DESCRIPTION
###FieldID
1
###FinalCumulativeMeterSetWeight
952
###GantryAngle
0
###PatientSupportAngle
270
###IsocenterPosition
0 -170 250
###NumberOfControlPoints
2

#SPOTS-DESCRIPTION
####ControlPointIndex
0
####SpotTunnedID
Spot1 
####CumulativeMetersetWeight
0
####Energy (MeV)
129.6
####NbOfScannedSpots
476
####X Y Weight
-51.7811 58.7813 2
-45.9862 58.7813 2
-40.1913 58.7813 2
-34.3964 58.7813 2
-28.6016 58.7813 2
-22.8067 58.7813 2
-17.0118 58.7813 2
-11.217 58.7813 2
-5.42209 58.7813 2
0.372783 58.7813 2
6.16765 58.7813 2
11.9625 58.7813 2
17.7574 58.7813 2
23.5523 58.7813 2
29.3471 58.7813 2
35.142 58.7813 2
40.9369 58.7813 2
46.7318 58.7813 2
55.4241 53.7627 2
49.6292 53.7627 2
43.8343 53.7627 2
38.0394 53.7627 2
32.2446 53.7627 2
26.4497 53.7627 2
20.6548 53.7627 2
14.86 53.7627 2
9.06509 53.7627 2
3.27022 53.7627 2
-2.52465 53.7627 2
-8.31952 53.7627 2
-14.1144 53.7627 2
-19.9093 53.7627 2
-25.7041 53.7627 2
-31.499 53.7627 2
-37.2939 53.7627 2
-43.0888 53.7627 2
-48.8836 53.7627 2
-54.6785 53.7627 2
-57.5759 48.7442 2
-51.7811 48.7442 2
-45.9862 48.7442 2
-40.1913 48.7442 2
-34.3964 48.7442 2
-28.6016 48.7442 2
-22.8067 48.7442 2
-17.0118 48.7442 2
-11.217 48.7442 2
-5.42209 48.7442 2
0.372783 48.7442 2
6.16765 48.7442 2
11.9625 48.7442 2
17.7574 48.7442 2
23.5523 48.7442 2
29.3471 48.7442 2
35.142 48.7442 2
40.9369 48.7442 2
46.7318 48.7442 2
52.5266 48.7442 2
55.4241 43.7257 2
49.6292 43.7257 2
43.8343 43.7257 2
38.0394 43.7257 2
32.2446 43.7257 2
26.4497 43.7257 2
20.6548 43.7257 2
14.86 43.7257 2
9.06509 43.7257 2
3.27022 43.7257 2
-2.52465 43.7257 2
-8.31952 43.7257 2
-14.1144 43.7257 2
-19.9093 43.7257 2
-25.7041 43.7257 2
-31.499 43.7257 2
-37.2939 43.7257 2
-43.0888 43.7257 2
-48.8836 43.7257 2
-54.6785 43.7257 2
-57.5759 38.7072 2
-51.7811 38.7072 2
-45.9862 38.7072 2
-40.1913 38.7072 2
-34.3964 38.7072 2
-28.6016 38.7072 2
-22.8067 38.7072 2
-17.0118 38.7072 2
-11.217 38.7072 2
-5.42209 38.7072 2
0.372783 38.7072 2
6.16765 38.7072 2
11.9625 38.7072 2
17.7574 38.7072 2
23.5523 38.7072 2
29.3471 38.7072 2
35.142 38.7072 2
40.9369 38.7072 2
46.7318 38.7072 2
52.5266 38.7072 2
55.4241 33.6887 2
49.6292 33.6887 2
43.8343 33.6887 2
38.0394 33.6887 2
32.2446 33.6887 2
26.4497 33.6887 2
20.6548 33.6887 2
14.86 33.6887 2
9.06509 33.6887 2
3.27022 33.6887 2
-2.52465 33.6887 2
-8.31952 33.6887 2
-14.1144 33.6887 2
-19.9093 33.6887 2
-25.7041 33.6887 2
-31.499 33.6887 2
-37.2939 33.6887 2
-43.0888 33.6887 2
-48.8836 33.6887 2
-54.6785 33.6887 2
-57.5759 28.6702 2
-51.7811 28.6702 2
-45.9862 28.6702 2
-40.1913 28.6702 2
-34.3964 28.6702 2
-28.6016 28.6702 2
-22.8067 28.6702 2
-17.0118 28.6702 2
-11.217 28.6702 2
-5.42209 28.6702 2
0.372783 28.6702 2
6.16765 28.6702 2
11.9625 28.6702 2
17.7574 28.6702 2
23.5523 28.6702 2
29.3471 28.6702 2
35.142 28.6702 2
40.9369 28.6702 2
46.7318 28.6702 2
52.5266 28.6702 2
55.4241 23.6517 2
49.6292 23.6517 2
43.8343 23.6517 2
38.0394 23.6517 2
32.2446 23.6517 2
26.4497 23.6517 2
20.6548 23.6517 2
14.86 23.6517 2
9.06509 23.6517 2
3.27022 23.6517 2
-2.52465 23.6517 2
-8.31952 23.6517 2
-14.1144 23.6517 2
-19.9093 23.6517 2
-25.7041 23.6517 2
-31.499 23.6517 2
-37.2939 23.6517 2
-43.0888 23.6517 2
-48.8836 23.6517 2
-54.6785 23.6517 2
-57.5759 18.6332 2
-51.7811 18.6332 2
-45.9862 18.6332 2
-40.1913 18.6332 2
-34.3964 18.6332 2
-28.6016 18.6332 2
-22.8067 18.6332 2
-17.0118 18.6332 2
-11.217 18.6332 2
-5.42209 18.6332 2
0.372783 18.6332 2
6.16765 18.6332 2
11.9625 18.6332 2
17.7574 18.6332 2
23.5523 18.6332 2
29.3471 18.6332 2
35.142 18.6332 2
40.9369 18.6332 2
46.7318 18.6332 2
52.5266 18.6332 2
55.4241 13.6147 2
49.6292 13.6147 2
43.8343 13.6147 2
38.0394 13.6147 2
32.2446 13.6147 2
26.4497 13.6147 2
20.6548 13.6147 2
14.86 13.6147 2
9.06509 13.6147 2
3.27022 13.6147 2
-2.52465 13.6147 2
-8.31952 13.6147 2
-14.1144 13.6147 2
-19.9093 13.6147 2
-25.7041 13.6147 2
-31.499 13.6147 2
-37.2939 13.6147 2
-43.0888 13.6147 2
-48.8836 13.6147 2
-54.6785 13.6147 2
-57.5759 8.5962 2
-51.7811 8.5962 2
-45.9862 8.5962 2
-40.1913 8.5962 2
-34.3964 8.5962 2
-28.6016 8.5962 2
-22.8067 8.5962 2
-17.0118 8.5962 2
-11.217 8.5962 2
-5.42209 8.5962 2
0.372783 8.5962 2
6.16765 8.5962 2
11.9625 8.5962 2
17.7574 8.5962 2
23.5523 8.5962 2
29.3471 8.5962 2
35.142 8.5962 2
40.9369 8.5962 2
46.7318 8.5962 2
52.5266 8.5962 2
55.4241 3.57769 2
49.6292 3.57769 2
43.8343 3.57769 2
38.0394 3.57769 2
32.2446 3.57769 2
26.4497 3.57769 2
20.6548 3.57769 2
14.86 3.57769 2
9.06509 3.57769 2
3.27022 3.57769 2
-2.52465 3.57769 2
-8.31952 3.57769 2
-14.1144 3.57769 2
-19.9093 3.57769 2
-25.7041 3.57769 2
-31.499 3.57769 2
-37.2939 3.57769 2
-43.0888 3.57769 2
-48.8836 3.57769 2
-54.6785 3.57769 2
-57.5759 -1.44082 2
-51.7811 -1.44082 2
-45.9862 -1.44082 2
-40.1913 -1.44082 2
-34.3964 -1.44082 2
-28.6016 -1.44082 2
-22.8067 -1.44082 2
-17.0118 -1.44082 2
-11.217 -1.44082 2
-5.42209 -1.44082 2
0.372783 -1.44082 2
6.16765 -1.44082 2
11.9625 -1.44082 2
17.7574 -1.44082 2
23.5523 -1.44082 2
29.3471 -1.44082 2
35.142 -1.44082 2
40.9369 -1.44082 2
46.7318 -1.44082 2
52.5266 -1.44082 2
55.4241 -6.45932 2
49.6292 -6.45932 2
43.8343 -6.45932 2
38.0394 -6.45932 2
32.2446 -6.45932 2
26.4497 -6.45932 2
20.6548 -6.45932 2
14.86 -6.45932 2
9.06509 -6.45932 2
3.27022 -6.45932 2
-2.52465 -6.45932 2
-8.31952 -6.45932 2
-14.1144 -6.45932 2
-19.9093 -6.45932 2
-25.7041 -6.45932 2
-31.499 -6.45932 2
-37.2939 -6.45932 2
-43.0888 -6.45932 2
-48.8836 -6.45932 2
-54.6785 -6.45932 2
-57.5759 -11.4778 2
-51.7811 -11.4778 2
-45.9862 -11.4778 2
-40.1913 -11.4778 2
-34.3964 -11.4778 2
-28.6016 -11.4778 2
-22.8067 -11.4778 2
-17.0118 -11.4778 2
-11.217 -11.4778 2
-5.42209 -11.4778 2
0.372783 -11.4778 2
6.16765 -11.4778 2
11.9625 -11.4778 2
17.7574 -11.4778 2
23.5523 -11.4778 2
29.3471 -11.4778 2
35.142 -11.4778 2
40.9369 -11.4778 2
46.7318 -11.4778 2
52.5266 -11.4778 2
55.4241 -16.4963 2
49.6292 -16.4963 2
43.8343 -16.4963 2
38.0394 -16.4963 2
32.2446 -16.4963 2
26.4497 -16.4963 2
20.6548 -16.4963 2
14.86 -16.4963 2
9.06509 -16.4963 2
3.27022 -16.4963 2
-2.52465 -16.4963 2
-8.31952 -16.4963 2
-14.1144 -16.4963 2
-19.9093 -16.4963 2
-25.7041 -16.4963 2
-31.499 -16.4963 2
-37.2939 -16.4963 2
-43.0888 -16.4963 2
-48.8836 -16.4963 2
-54.6785 -16.4963 2
-57.5759 -21.5148 2
-51.7811 -21.5148 2
-45.9862 -21.5148 2
-40.1913 -21.5148 2
-34.3964 -21.5148 2
-28.6016 -21.5148 2
-22.8067 -21.5148 2
-17.0118 -21.5148 2
-11.217 -21.5148 2
-5.42209 -21.5148 2
0.372783 -21.5148 2
6.16765 -21.5148 2
11.9625 -21.5148 2
17.7574 -21.5148 2
23.5523 -21.5148 2
29.3471 -21.5148 2
35.142 -21.5148 2
40.9369 -21.5148 2
46.7318 -21.5148 2
52.5266 -21.5148 2
55.4241 -26.5333 2
49.6292 -26.5333 2
43.8343 -26.5333 2
38.0394 -26.5333 2
32.2446 -26.5333 2
26.4497 -26.5333 2
20.6548 -26.5333 2
14.86 -26.5333 2
9.06509 -26.5333 2
3.27022 -26.5333 2
-2.52465 -26.5333 2
-8.31952 -26.5333 2
-14.1144 -26.5333 2
-19.9093 -26.5333 2
-25.7041 -26.5333 2
-31.499 -26.5333 2
-37.2939 -26.5333 2
-43.0888 -26.5333 2
-48.8836 -26.5333 2
-54.6785 -26.5333 2
-57.5759 -31.5519 2
-51.7811 -31.5519 2
-45.9862 -31.5519 2
-40.1913 -31.5519 2
-34.3964 -31.5519 2
-28.6016 -31.5519 2
-22.8067 -31.5519 2
-17.0118 -31.5519 2
-11.217 -31.5519 2
-5.42209 -31.5519 2
0.372783 -31.5519 2
6.16765 -31.5519 2
11.9625 -31.5519 2
17.7574 -31.5519 2
23.5523 -31.5519 2
29.3471 -31.5519 2
35.142 -31.5519 2
40.9369 -31.5519 2
46.7318 -31.5519 2
52.5266 -31.5519 2
55.4241 -36.5704 2
49.6292 -36.5704 2
43.8343 -36.5704 2
38.0394 -36.5704 2
32.2446 -36.5704 2
26.4497 -36.5704 2
20.6548 -36.5704 2
14.86 -36.5704 2
9.06509 -36.5704 2
3.27022 -36.5704 2
-2.52465 -36.5704 2
-8.31952 -36.5704 2
-14.1144 -36.5704 2
-19.9093 -36.5704 2
-25.7041 -36.5704 2
-31.499 -36.5704 2
-37.2939 -36.5704 2
-43.0888 -36.5704 2
-48.8836 -36.5704 2
-54.6785 -36.5704 2
-57.5759 -41.5889 2
-51.7811 -41.5889 2
-45.9862 -41.5889 2
-40.1913 -41.5889 2
-34.3964 -41.5889 2
-28.6016 -41.5889 2
-22.8067 -41.5889 2
-17.0118 -41.5889 2
-11.217 -41.5889 2
-5.42209 -41.5889 2
0.372783 -41.5889 2
6.16765 -41.5889 2
11.9625 -41.5889 2
17.7574 -41.5889 2
23.5523 -41.5889 2
29.3471 -41.5889 2
35.142 -41.5889 2
40.9369 -41.5889 2
46.7318 -41.5889 2
52.5266 -41.5889 2
55.4241 -46.6074 2
49.6292 -46.6074 2
43.8343 -46.6074 2
38.0394 -46.6074 2
32.2446 -46.6074 2
26.4497 -46.6074 2
20.6548 -46.6074 2
14.86 -46.6074 2
9.06509 -46.6074 2
3.27022 -46.6074 2
-2.52465 -46.6074 2
-8.31952 -46.6074 2
-14.1144 -46.6074 2
-19.9093 -46.6074 2
-25.7041 -46.6074 2
-31.499 -46.6074 2
-37.2939 -46.6074 2
-43.0888 -46.6074 2
-48.8836 -46.6074 2
-54.6785 -46.6074 2
-57.5759 -51.6259 2
-51.7811 -51.6259 2
-45.9862 -51.6259 2
-40.1913 -51.6259 2
-34.3964 -51.6259 2
-28.6016 -51.6259 2
-22.8067 -51.6259 2
-17.0118 -51.6259 2
-11.217 -51.6259 2
-5.42209 -51.6259 2
0.372783 -51.6259 2
6.16765 -51.6259 2
11.9625 -51.6259 2
17.7574 -51.6259 2
23.5523 -51.6259 2
29.3471 -51.6259 2
35.142 -51.6259 2
40.9369 -51.6259 2
46.7318 -51.6259 2
52.5266 -51.6259 2
49.6292 -56.6444 2
43.8343 -56.6444 2
38.0394 -56.6444 2
32.2446 -56.6444 2
26.4497 -56.6444 2
20.6548 -56.6444 2
14.86 -56.6444 2
9.06509 -56.6444 2
3.27022 -56.6444 2
-2.52465 -56.6444 2
-8.31952 -56.6444 2
-14.1144 -56.6444 2
-19.9093 -56.6444 2
-25.7041 -56.6444 2
-31.499 -56.6444 2
-37.2939 -56.6444 2
-43.0888 -56.6444 2
-48.8836 -56.6444 2
####ControlPointIndex
1
####SpotTunnedID
0 
####CumulativeMetersetWeight
952
####Energy (MeV)
0
####NbOfScannedSpots
0
####X Y Weight
