#TREATMENT-PLAN-DESCRIPTION
#PlanName
BP32-PB 
#NumberOfFractions
1
##FractionID
1
##NumberOfFields
1
###FieldsID
1
#TotalMetersetWeightOfAllFields
750

#FIELD-DESCRIPTION
###FieldID
1
###FinalCumulativeMeterSetWeight
750
###GantryAngle
0
###PatientSupportAngle
270
###IsocenterPosition
0 -170 250
###NumberOfControlPoints
2

#SPOTS-DESCRIPTION
####ControlPointIndex
0
####SpotTunnedID
Spot1 
####CumulativeMetersetWeight
0
####Energy (MeV)
226.09
####NbOfScannedSpots
250
####X Y Weight
-46.664 56.0486 3
-38.8475 56.0486 3
-31.031 56.0486 3
-23.2145 56.0486 3
-15.398 56.0486 3
-7.58153 56.0486 3
0.234957 56.0486 3
8.05144 56.0486 3
15.8679 56.0486 3
23.6844 56.0486 3
31.5009 56.0486 3
39.3174 56.0486 3
47.1339 56.0486 3
51.0421 49.2793 3
43.2256 49.2793 3
35.4091 49.2793 3
27.5927 49.2793 3
19.7762 49.2793 3
11.9597 49.2793 3
4.1432 49.2793 3
-3.67329 49.2793 3
-11.4898 49.2793 3
-19.3063 49.2793 3
-27.1227 49.2793 3
-34.9392 49.2793 3
-42.7557 49.2793 3
-50.5722 49.2793 3
-54.4805 42.51 3
-46.664 42.51 3
-38.8475 42.51 3
-31.031 42.51 3
-23.2145 42.51 3
-15.398 42.51 3
-7.58153 42.51 3
0.234957 42.51 3
8.05144 42.51 3
15.8679 42.51 3
23.6844 42.51 3
31.5009 42.51 3
39.3174 42.51 3
47.1339 42.51 3
51.0421 35.7408 3
43.2256 35.7408 3
35.4091 35.7408 3
27.5927 35.7408 3
19.7762 35.7408 3
11.9597 35.7408 3
4.1432 35.7408 3
-3.67329 35.7408 3
-11.4898 35.7408 3
-19.3063 35.7408 3
-27.1227 35.7408 3
-34.9392 35.7408 3
-42.7557 35.7408 3
-50.5722 35.7408 3
-54.4805 28.9715 3
-46.664 28.9715 3
-38.8475 28.9715 3
-31.031 28.9715 3
-23.2145 28.9715 3
-15.398 28.9715 3
-7.58153 28.9715 3
0.234957 28.9715 3
8.05144 28.9715 3
15.8679 28.9715 3
23.6844 28.9715 3
31.5009 28.9715 3
39.3174 28.9715 3
47.1339 28.9715 3
51.0421 22.2022 3
43.2256 22.2022 3
35.4091 22.2022 3
27.5927 22.2022 3
19.7762 22.2022 3
11.9597 22.2022 3
4.1432 22.2022 3
-3.67329 22.2022 3
-11.4898 22.2022 3
-19.3063 22.2022 3
-27.1227 22.2022 3
-34.9392 22.2022 3
-42.7557 22.2022 3
-50.5722 22.2022 3
-54.4805 15.4329 3
-46.664 15.4329 3
-38.8475 15.4329 3
-31.031 15.4329 3
-23.2145 15.4329 3
-15.398 15.4329 3
-7.58153 15.4329 3
0.234957 15.4329 3
8.05144 15.4329 3
15.8679 15.4329 3
23.6844 15.4329 3
31.5009 15.4329 3
39.3174 15.4329 3
47.1339 15.4329 3
51.0421 8.66365 3
43.2256 8.66365 3
35.4091 8.66365 3
27.5927 8.66365 3
19.7762 8.66365 3
11.9597 8.66365 3
4.1432 8.66365 3
-3.67329 8.66365 3
-11.4898 8.66365 3
-19.3063 8.66365 3
-27.1227 8.66365 3
-34.9392 8.66365 3
-42.7557 8.66365 3
-50.5722 8.66365 3
-54.4805 1.89437 3
-46.664 1.89437 3
-38.8475 1.89437 3
-31.031 1.89437 3
-23.2145 1.89437 3
-15.398 1.89437 3
-7.58153 1.89437 3
0.234957 1.89437 3
8.05144 1.89437 3
15.8679 1.89437 3
23.6844 1.89437 3
31.5009 1.89437 3
39.3174 1.89437 3
47.1339 1.89437 3
51.0421 -4.8749 3
43.2256 -4.8749 3
35.4091 -4.8749 3
27.5927 -4.8749 3
19.7762 -4.8749 3
11.9597 -4.8749 3
4.1432 -4.8749 3
-3.67329 -4.8749 3
-11.4898 -4.8749 3
-19.3063 -4.8749 3
-27.1227 -4.8749 3
-34.9392 -4.8749 3
-42.7557 -4.8749 3
-50.5722 -4.8749 3
-54.4805 -11.6442 3
-46.664 -11.6442 3
-38.8475 -11.6442 3
-31.031 -11.6442 3
-23.2145 -11.6442 3
-15.398 -11.6442 3
-7.58153 -11.6442 3
0.234957 -11.6442 3
8.05144 -11.6442 3
15.8679 -11.6442 3
23.6844 -11.6442 3
31.5009 -11.6442 3
39.3174 -11.6442 3
47.1339 -11.6442 3
51.0421 -18.4135 3
43.2256 -18.4135 3
35.4091 -18.4135 3
27.5927 -18.4135 3
19.7762 -18.4135 3
11.9597 -18.4135 3
4.1432 -18.4135 3
-3.67329 -18.4135 3
-11.4898 -18.4135 3
-19.3063 -18.4135 3
-27.1227 -18.4135 3
-34.9392 -18.4135 3
-42.7557 -18.4135 3
-50.5722 -18.4135 3
-54.4805 -25.1827 3
-46.664 -25.1827 3
-38.8475 -25.1827 3
-31.031 -25.1827 3
-23.2145 -25.1827 3
-15.398 -25.1827 3
-7.58153 -25.1827 3
0.234957 -25.1827 3
8.05144 -25.1827 3
15.8679 -25.1827 3
23.6844 -25.1827 3
31.5009 -25.1827 3
39.3174 -25.1827 3
47.1339 -25.1827 3
51.0421 -31.952 3
43.2256 -31.952 3
35.4091 -31.952 3
27.5927 -31.952 3
19.7762 -31.952 3
11.9597 -31.952 3
4.1432 -31.952 3
-3.67329 -31.952 3
-11.4898 -31.952 3
-19.3063 -31.952 3
-27.1227 -31.952 3
-34.9392 -31.952 3
-42.7557 -31.952 3
-50.5722 -31.952 3
-54.4805 -38.7213 3
-46.664 -38.7213 3
-38.8475 -38.7213 3
-31.031 -38.7213 3
-23.2145 -38.7213 3
-15.398 -38.7213 3
-7.58153 -38.7213 3
0.234957 -38.7213 3
8.05144 -38.7213 3
15.8679 -38.7213 3
23.6844 -38.7213 3
31.5009 -38.7213 3
39.3174 -38.7213 3
47.1339 -38.7213 3
51.0421 -45.4906 3
43.2256 -45.4906 3
35.4091 -45.4906 3
27.5927 -45.4906 3
19.7762 -45.4906 3
11.9597 -45.4906 3
4.1432 -45.4906 3
-3.67329 -45.4906 3
-11.4898 -45.4906 3
-19.3063 -45.4906 3
-27.1227 -45.4906 3
-34.9392 -45.4906 3
-42.7557 -45.4906 3
-50.5722 -45.4906 3
-54.4805 -52.2598 3
-46.664 -52.2598 3
-38.8475 -52.2598 3
-31.031 -52.2598 3
-23.2145 -52.2598 3
-15.398 -52.2598 3
-7.58153 -52.2598 3
0.234957 -52.2598 3
8.05144 -52.2598 3
15.8679 -52.2598 3
23.6844 -52.2598 3
31.5009 -52.2598 3
39.3174 -52.2598 3
47.1339 -52.2598 3
43.2256 -59.0291 3
35.4091 -59.0291 3
27.5927 -59.0291 3
19.7762 -59.0291 3
11.9597 -59.0291 3
4.1432 -59.0291 3
-3.67329 -59.0291 3
-11.4898 -59.0291 3
-19.3063 -59.0291 3
-27.1227 -59.0291 3
-34.9392 -59.0291 3
-42.7557 -59.0291 3
-50.5722 -59.0291 3
####ControlPointIndex
1
####SpotTunnedID
0 
####CumulativeMetersetWeight
750
####Energy (MeV)
0
####NbOfScannedSpots
0
####X Y Weight
